 h2so4 RRTMG LUT interpolated from GADS (DAR 09/2013)
 V0.1 - contains Fast-J wavelengths but is the same as the original jv_spec.dat values
  w(nm)   RH       N         iK    RgDry    RgWet      Sg         Q  Alpha  r-eff ss-alb  g-sym  pi(0)  pi(1)  pi(2)  pi(3)  pi(4)  pi(5)  pi(6)  pi(7)
  300.0    0  1.4690  0.100E-07  0.80642  0.80642    0.60  0.000000  0.990  0.806  0.980  0.000  1.000  0.000  0.500  0.000  0.000  0.000 -0.000  0.000
  400.0    0  1.4400  0.100E-07  0.80642  0.80642    0.60  0.000000  0.990  0.806  0.948  0.000  1.000  0.000  0.500  0.000  0.000  0.000  0.000  0.000
  440.0    0  1.4330  0.998E-08  0.80642  0.80642    0.60  0.000000  0.990  0.806  0.929  0.000  1.000  0.000  0.500  0.000  0.000  0.000 -0.000  0.000
  500.0    0  1.4310  0.100E-07  0.80642  0.80642    0.60  0.000000  0.990  0.806  0.899  0.000  1.000  0.000  0.500  0.000  0.000  0.000 -0.000 -0.000
  550.0    0  1.4300  0.100E-07  0.80642  0.80642    0.60  0.000000  0.990  0.806  0.869  0.000  1.000  0.000  0.500  0.000  0.000  0.000 -0.000  0.000
  600.0    0  1.4290  0.147E-07  0.80642  0.80642    0.60  0.000000  0.990  0.806  0.776  0.000  1.000  0.000  0.500  0.000  0.000  0.000  0.000  0.000
  675.0    0  1.4286  0.161E-07  0.80642  0.80642    0.60  0.000000  0.990  0.806  0.689  0.000  1.000  0.000  0.500  0.000  0.000 -0.000 -0.000  0.000
  800.0    0  1.4260  0.863E-07  0.80642  0.80642    0.60  0.000000  0.990  0.806  0.197  0.000  1.000  0.000  0.500  0.000  0.000  0.000  0.000 -0.000
  870.0    0  1.4254  0.181E-06  0.80642  0.80642    0.60  0.000000  0.990  0.806  0.083  0.000  1.000  0.000  0.500  0.000  0.000 -0.000 -0.000  0.000
 1000.0    0  1.4220  0.153E-05  0.80642  0.80642    0.60  0.000000  0.990  0.806  0.007  0.000  1.000  0.000  0.500  0.000  0.000 -0.000 -0.000  0.000
 1020.0    0  1.4213  0.222E-07  0.80642  0.80642    0.60  0.000000  0.990  0.806  0.310  0.000  1.000  0.000  0.500  0.000  0.000  0.000 -0.000 -0.000
55555.6    0  1.9000  0.190E+00  0.80642  0.80642    0.60  0.000051  0.990  0.806  0.000  0.000  1.000  0.000  0.500  0.000 -0.000  0.000  0.000  0.000
23529.4    0  1.9155  0.188E-01  0.80642  0.80642    0.60  0.000012  0.990  0.806  0.000  0.000  1.000  0.000  0.200  0.000 -0.000  0.000  0.000 -0.000
17699.1    0  1.8923  0.236E+00  0.80642  0.80642    0.60  0.000200  0.990  0.806  0.000  0.000  1.000  0.000  0.200  0.000 -0.000 -0.000 -0.000 -0.000
15037.6    0  1.5858  0.212E+00  0.80642  0.80642    0.60  0.000272  0.990  0.806  0.000  0.000  1.000  0.000  0.200  0.000 -0.000 -0.000 -0.000  0.000
13157.9    0  1.6817  0.196E+00  0.80642  0.80642    0.60  0.000266  0.990  0.806  0.000  0.000  1.000  0.000  0.200  0.000 -0.000 -0.000 -0.000  0.000
11111.1    0  1.7044  0.486E+00  0.80642  0.80642    0.60  0.000755  0.990  0.806  0.000  0.000  1.000  0.000  0.500  0.000 -0.000  0.000  0.000 -0.000
 9708.7    0  1.8565  0.744E+00  0.80642  0.80642    0.60  0.001119  0.990  0.806  0.000  0.000  1.000  0.000  0.500  0.000 -0.000 -0.000 -0.000  0.000
 8849.6    0  1.6203  0.715E+00  0.80642  0.80642    0.60  0.001459  0.990  0.806  0.000  0.000  1.000  0.000  0.500  0.000 -0.000 -0.000 -0.000 -0.000
 7782.1    0  1.1366  0.425E+00  0.80642  0.80642    0.60  0.001453  0.990  0.806  0.000  0.000  1.000  0.000  0.500  0.000  0.000 -0.000  0.000  0.000
 6968.6    0  1.2605  0.132E+00  0.80642  0.80642    0.60  0.000461  0.990  0.806  0.000  0.000  1.000  0.000  0.500  0.000  0.000 -0.000 -0.000  0.000
 6097.6    0  1.4291  0.182E+00  0.80642  0.80642    0.60  0.000648  0.990  0.806  0.000  0.000  1.000  0.000  0.500  0.000  0.000  0.000 -0.000  0.000
 5154.6    0  1.3446  0.136E+00  0.80642  0.80642    0.60  0.000608  0.990  0.806  0.000  0.000  1.000  0.000  0.500  0.000  0.000 -0.000 -0.000 -0.000
 4618.9    0  1.3832  0.117E+00  0.80642  0.80642    0.60  0.000569  0.990  0.806  0.000  0.000  1.000  0.000  0.500  0.000  0.000  0.000  0.000  0.000
 4319.7    0  1.3837  0.124E+00  0.80642  0.80642    0.60  0.000644  0.990  0.806  0.000  0.000  1.000  0.000  0.500  0.000  0.000  0.000  0.000  0.000
 4016.1    0  1.3844  0.126E+00  0.80642  0.80642    0.60  0.000704  0.990  0.806  0.000  0.000  1.000  0.000  0.500  0.000  0.000  0.000 -0.000 -0.000
 3418.8    0  1.3572  0.159E+00  0.80642  0.80642    0.60  0.001063  0.990  0.806  0.000  0.000  1.000  0.000  0.500  0.000  0.000 -0.000 -0.000 -0.000
 3444.7    0  1.3636  0.160E+00  0.80642  0.80642    0.60  0.001057  0.990  0.806  0.000  0.000  1.000  0.000  0.500  0.000  0.000 -0.000 -0.000 -0.000
 2777.0    0  1.3064  0.473E-01  0.80642  0.80642    0.60  0.000402  0.990  0.806  0.000  0.000  1.000  0.000  0.500  0.000  0.000  0.000 -0.000  0.000
 2320.2    0  1.3633  0.406E-02  0.80642  0.80642    0.60  0.000040  0.990  0.806  0.000  0.000  1.000  0.000  0.500  0.000  0.000 -0.000  0.000  0.000
 2044.2    0  1.3818  0.589E-03  0.80642  0.80642    0.60  0.000006  0.990  0.806  0.000  0.000  1.000  0.000  0.500  0.000  0.000  0.000  0.000  0.000
 1778.4    0  1.3930  0.619E-03  0.80642  0.80642    0.60  0.000008  0.990  0.806  0.000  0.000  1.000  0.000  0.500  0.000  0.000 -0.000 -0.000 -0.000
 1455.2    0  1.4048  0.128E-03  0.80642  0.80642    0.60  0.000002  0.990  0.806  0.000  0.000  1.000  0.000  0.500  0.000  0.000 -0.000 -0.000 -0.000
 1270.3    0  1.4122  0.181E-04  0.80642  0.80642    0.60  0.000000  0.990  0.806  0.000  0.000  1.000  0.000  0.500  0.000  0.000  0.000 -0.000  0.000
  944.3    0  1.4239  0.174E-05  0.80642  0.80642    0.60  0.000000  0.990  0.806  0.007  0.000  1.000  0.000  0.500  0.000  0.000  0.000 -0.000  0.000
  693.5    0  1.4282  0.185E-07  0.80642  0.80642    0.60  0.000000  0.990  0.806  0.639  0.000  1.000  0.000  0.500  0.000  0.000  0.000  0.000 -0.000
  527.1    0  1.4306  0.959E-08  0.80642  0.80642    0.60  0.000000  0.990  0.806  0.887  0.000  1.000  0.000  0.500  0.000  0.000  0.000  0.000  0.000
  399.8    0  1.4400  0.100E-07  0.80642  0.80642    0.60  0.000000  0.990  0.806  0.948  0.000  1.000  0.000  0.500  0.000  0.000  0.000 -0.000  0.000
  329.1    0  1.4587  0.100E-07  0.80642  0.80642    0.60  0.000000  0.990  0.806  0.972  0.000  1.000  0.000  0.500  0.000  0.000  0.000 -0.000  0.000
  229.8    0  1.4860  0.100E-07  0.80642  0.80642    0.60  0.000000  0.990  0.806  0.992  0.000  1.000  0.000  0.500  0.000  0.000  0.000 -0.000  0.000
 7082.2    0  1.2350  0.149E+00  0.80642  0.80642    0.60  0.000520  0.990  0.806  0.000  0.000  1.000  0.000  0.500  0.000  0.000  0.000 -0.000  0.000
  300.0   50  1.3920  0.139E-07  0.80642  1.20869    0.60  0.000000  0.990  1.209  0.988  0.000  1.000  0.000  0.500  0.000  0.000  0.000  0.000  0.000
  400.0   50  1.3750  0.476E-08  0.80642  1.20869    0.60  0.000000  0.990  1.209  0.989  0.000  1.000  0.000  0.500  0.000  0.000  0.000 -0.000  0.000
  440.0   50  1.3716  0.419E-08  0.80642  1.20869    0.60  0.000000  0.990  1.209  0.987  0.000  1.000  0.000  0.500  0.000  0.000  0.000  0.000  0.000
  500.0   50  1.3690  0.421E-08  0.80642  1.20869    0.60  0.000000  0.990  1.209  0.981  0.000  1.000  0.000  0.500  0.000  0.000  0.000  0.000  0.000
  550.0   50  1.3680  0.483E-08  0.80642  1.20869    0.60  0.000000  0.990  1.209  0.971  0.000  1.000  0.000  0.500  0.000  0.000  0.000  0.000 -0.000
  600.0   50  1.3670  0.123E-07  0.80642  1.20869    0.60  0.000000  0.990  1.209  0.910  0.000  1.000  0.000  0.500  0.000  0.000  0.000 -0.000 -0.000
  675.0   50  1.3660  0.209E-07  0.80642  1.20869    0.60  0.000000  0.990  1.209  0.806  0.000  1.000  0.000  0.500  0.000  0.000  0.000  0.000  0.000
  800.0   50  1.3640  0.111E-06  0.80642  1.20869    0.60  0.000000  0.990  1.209  0.317  0.000  1.000  0.000  0.500  0.000  0.000  0.000  0.000  0.000
  870.0   50  1.3633  0.101E-05  0.80642  1.20869    0.60  0.000000  0.990  1.209  0.038  0.000  1.000  0.000  0.500  0.000  0.000  0.000 -0.000  0.000
 1000.0   50  1.3610  0.240E-05  0.80642  1.20869    0.60  0.000000  0.990  1.209  0.011  0.000  1.000  0.000  0.500  0.000  0.000  0.000 -0.000 -0.000
 1020.0   50  1.3605  0.456E-05  0.80642  1.20869    0.60  0.000000  0.990  1.209  0.005  0.000  1.000  0.000  0.500  0.000  0.000  0.000 -0.000 -0.000
55555.6   50  1.6630  0.284E+00  0.80642  1.20869    0.60  0.000311  0.990  1.209  0.000  0.000  1.000  0.000  0.200  0.000 -0.000 -0.000 -0.000  0.000
23529.4   50  1.6596  0.240E+00  0.80642  1.20869    0.60  0.000624  0.990  1.209  0.000  0.000  1.000  0.000  0.200  0.000 -0.000  0.000 -0.000 -0.000
17699.1   50  1.5819  0.359E+00  0.80642  1.20869    0.60  0.001315  0.990  1.209  0.000  0.000  1.000  0.000  0.500  0.000 -0.000  0.000 -0.000 -0.000
15037.6   50  1.3838  0.335E+00  0.80642  1.20869    0.60  0.001683  0.990  1.209  0.000  0.000  1.000  0.000  0.500  0.000 -0.000 -0.000 -0.000 -0.000
13157.9   50  1.3430  0.275E+00  0.80642  1.20869    0.60  0.001626  0.990  1.209  0.000  0.000  1.000  0.000  0.500  0.000 -0.000 -0.000 -0.000  0.000
11111.1   50  1.3450  0.241E+00  0.80642  1.20869    0.60  0.001684  0.990  1.209  0.000  0.000  1.000  0.000  0.500  0.000  0.000 -0.000 -0.000 -0.000
 9708.7   50  1.4557  0.295E+00  0.80642  1.20869    0.60  0.002177  0.990  1.209  0.000  0.000  1.000  0.000  0.500  0.000  0.000  0.000  0.000  0.000
 8849.6   50  1.3928  0.280E+00  0.80642  1.20869    0.60  0.002375  0.990  1.209  0.000  0.000  1.000  0.000  0.500  0.000  0.000  0.000 -0.000 -0.000
 7782.1   50  1.2406  0.173E+00  0.80642  1.20869    0.60  0.001846  0.990  1.209  0.000  0.000  1.000  0.000  0.500  0.000  0.000  0.000 -0.000  0.000
 6968.6   50  1.2906  0.631E-01  0.80642  1.20869    0.60  0.000728  0.990  1.209  0.000  0.000  1.000  0.000  0.500  0.000  0.000 -0.000  0.000  0.000
 6097.6   50  1.3559  0.131E+00  0.80642  1.20869    0.60  0.001654  0.990  1.209  0.000  0.000  1.000  0.000  0.500  0.000  0.000 -0.000 -0.000  0.000
 5154.6   50  1.3318  0.514E-01  0.80642  1.20869    0.60  0.000780  0.990  1.209  0.000  0.000  1.000  0.000  0.500  0.000  0.000 -0.000 -0.000  0.000
 4618.9   50  1.3484  0.517E-01  0.80642  1.20869    0.60  0.000866  0.990  1.209  0.000  0.000  1.000  0.000  0.500  0.000  0.000 -0.000 -0.000  0.000
 4319.7   50  1.3538  0.504E-01  0.80642  1.20869    0.60  0.000900  0.990  1.209  0.000  0.000  1.000  0.000  0.500  0.000  0.000  0.000 -0.000  0.000
 4016.1   50  1.3622  0.480E-01  0.80642  1.20869    0.60  0.000916  0.990  1.209  0.000  0.000  1.000  0.000  0.500  0.000  0.000  0.000 -0.000  0.000
 3418.8   50  1.3941  0.689E-01  0.80642  1.20869    0.60  0.001511  0.990  1.209  0.000  0.000  1.000  0.000  0.500  0.000  0.000 -0.000 -0.000  0.000
 3444.7   50  1.3926  0.668E-01  0.80642  1.20869    0.60  0.001456  0.990  1.209  0.000  0.000  1.000  0.000  0.500  0.000  0.000 -0.000 -0.000 -0.000
 2777.0   50  1.2890  0.162E+00  0.80642  1.20869    0.60  0.004698  0.990  1.209  0.000  0.000  1.000  0.000  0.500  0.000  0.000  0.000 -0.000  0.000
 2320.2   50  1.3070  0.294E-01  0.80642  1.20869    0.60  0.001008  0.990  1.209  0.000  0.000  1.000  0.000  0.500  0.000  0.000 -0.000 -0.000 -0.000
 2044.2   50  1.3314  0.264E-02  0.80642  1.20869    0.60  0.000101  0.990  1.209  0.000  0.000  1.000  0.000  0.500  0.000  0.000  0.000 -0.000  0.000
 1778.4   50  1.3412  0.901E-03  0.80642  1.20869    0.60  0.000039  0.990  1.209  0.000  0.000  1.000  0.000  0.500  0.000  0.000  0.000 -0.000 -0.000
 1455.2   50  1.3511  0.321E-03  0.80642  1.20869    0.60  0.000017  0.990  1.209  0.000  0.000  1.000  0.000  0.500  0.000  0.000 -0.000 -0.000  0.000
 1270.3   50  1.3546  0.500E-04  0.80642  1.20869    0.60  0.000003  0.990  1.209  0.000  0.000  1.000  0.000  0.500  0.000  0.000 -0.000 -0.000  0.000
  944.3   50  1.3623  0.524E-05  0.80642  1.20869    0.60  0.000000  0.990  1.209  0.006  0.000  1.000  0.000  0.500  0.000  0.000  0.000  0.000  0.000
  693.5   50  1.3660  0.264E-07  0.80642  1.20869    0.60  0.000000  0.990  1.209  0.752  0.000  1.000  0.000  0.500  0.000  0.000  0.000 -0.000  0.000
  527.1   50  1.3684  0.384E-08  0.80642  1.20869    0.60  0.000000  0.990  1.209  0.980  0.000  1.000  0.000  0.500  0.000  0.000  0.000 -0.000  0.000
  399.8   50  1.3750  0.477E-08  0.80642  1.20869    0.60  0.000000  0.990  1.209  0.989  0.000  1.000  0.000  0.500  0.000  0.000  0.000 -0.000  0.000
  329.1   50  1.3855  0.958E-08  0.80642  1.20869    0.60  0.000000  0.990  1.209  0.989  0.000  1.000  0.000  0.500  0.000  0.000  0.000  0.000  0.000
  229.8   50  1.4079  0.267E-07  0.80642  1.20869    0.60  0.000001  0.990  1.209  0.990  0.000  1.000  0.001  0.500  0.000  0.000  0.000  0.000 -0.000
 7082.2   50  1.2833  0.716E-01  0.80642  1.20869    0.60  0.000816  0.990  1.209  0.000  0.000  1.000  0.000  0.500  0.000  0.000  0.000 -0.000  0.000
  300.0   70  1.3800  0.144E-07  0.80642  1.34841    0.60  0.000001  0.990  1.348  0.990  0.000  1.000  0.000  0.500  0.000  0.000  0.000  0.000  0.000
  400.0   70  1.3650  0.397E-08  0.80642  1.34841    0.60  0.000000  0.990  1.348  0.993  0.000  1.000  0.000  0.500  0.000  0.000  0.000  0.000 -0.000
  440.0   70  1.3624  0.332E-08  0.80642  1.34841    0.60  0.000000  0.990  1.348  0.992  0.000  1.000  0.000  0.500  0.000  0.000  0.000  0.000  0.000
  500.0   70  1.3600  0.333E-08  0.80642  1.34841    0.60  0.000000  0.990  1.348  0.989  0.000  1.000  0.000  0.500  0.000  0.000  0.000 -0.000 -0.000
  550.0   70  1.3580  0.404E-08  0.80642  1.34841    0.60  0.000000  0.990  1.348  0.981  0.000  1.000  0.000  0.500  0.000  0.000  0.000  0.000  0.000
  600.0   70  1.3570  0.119E-07  0.80642  1.34841    0.60  0.000000  0.990  1.348  0.932  0.000  1.000  0.000  0.500  0.000  0.000  0.000 -0.000 -0.000
  675.0   70  1.3560  0.216E-07  0.80642  1.34841    0.60  0.000000  0.990  1.348  0.841  0.000  1.000  0.000  0.500  0.000  0.000  0.000  0.000 -0.000
  800.0   70  1.3540  0.115E-06  0.80642  1.34841    0.60  0.000000  0.990  1.348  0.370  0.000  1.000  0.000  0.500  0.000  0.000  0.000  0.000 -0.000
  870.0   70  1.3532  0.114E-05  0.80642  1.34841    0.60  0.000000  0.990  1.348  0.044  0.000  1.000  0.000  0.500  0.000  0.000  0.000 -0.000 -0.000
 1000.0   70  1.3520  0.254E-05  0.80642  1.34841    0.60  0.000000  0.990  1.348  0.013  0.000  1.000  0.000  0.500  0.000  0.000  0.000 -0.000 -0.000
 1020.0   70  1.3517  0.526E-05  0.80642  1.34841    0.60  0.000001  0.990  1.348  0.006  0.000  1.000  0.000  0.500  0.000  0.000  0.000 -0.000 -0.000
55555.6   70  1.6270  0.298E+00  0.80642  1.34841    0.60  0.000467  0.990  1.348  0.000  0.000  1.000  0.000  0.200  0.000 -0.000  0.000 -0.000 -0.000
23529.4   70  1.6203  0.274E+00  0.80642  1.34841    0.60  0.001020  0.990  1.348  0.000  0.000  1.000  0.000  0.200  0.000 -0.000 -0.000  0.000 -0.000
17699.1   70  1.5353  0.378E+00  0.80642  1.34841    0.60  0.001993  0.990  1.348  0.000  0.000  1.000  0.000  0.500  0.000 -0.000  0.000 -0.000 -0.000
15037.6   70  1.3536  0.353E+00  0.80642  1.34841    0.60  0.002517  0.990  1.348  0.000  0.000  1.000  0.000  0.500  0.000 -0.000  0.000 -0.000  0.000
13157.9   70  1.2917  0.287E+00  0.80642  1.34841    0.60  0.002440  0.990  1.348  0.000  0.000  1.000  0.000  0.500  0.000  0.000  0.000 -0.000  0.000
11111.1   70  1.2908  0.204E+00  0.80642  1.34841    0.60  0.002052  0.990  1.348  0.000  0.000  1.000  0.000  0.500  0.000  0.000 -0.000  0.000  0.000
 9708.7   70  1.3956  0.228E+00  0.80642  1.34841    0.60  0.002443  0.990  1.348  0.000  0.000  1.000  0.000  0.500  0.000  0.000 -0.000 -0.000 -0.000
 8849.6   70  1.3591  0.214E+00  0.80642  1.34841    0.60  0.002581  0.990  1.348  0.000  0.000  1.000  0.000  0.500  0.000  0.000  0.000 -0.000  0.000
 7782.1   70  1.2562  0.136E+00  0.80642  1.34841    0.60  0.001994  0.990  1.348  0.000  0.000  1.000  0.000  0.500  0.000  0.000 -0.000  0.000 -0.000
 6968.6   70  1.2953  0.528E-01  0.80642  1.34841    0.60  0.000843  0.990  1.348  0.000  0.000  1.000  0.000  0.500  0.000  0.000  0.000  0.000  0.000
 6097.6   70  1.3446  0.123E+00  0.80642  1.34841    0.60  0.002173  0.990  1.348  0.000  0.000  1.000  0.000  0.500  0.000  0.000  0.000 -0.000  0.000
 5154.6   70  1.3303  0.384E-01  0.80642  1.34841    0.60  0.000810  0.990  1.348  0.000  0.000  1.000  0.000  0.500  0.000  0.000 -0.000  0.000 -0.000
 4618.9   70  1.3433  0.418E-01  0.80642  1.34841    0.60  0.000976  0.990  1.348  0.000  0.000  1.000  0.000  0.500  0.000  0.000 -0.000 -0.000  0.000
 4319.7   70  1.3497  0.392E-01  0.80642  1.34841    0.60  0.000974  0.990  1.348  0.000  0.000  1.000  0.000  0.500  0.000  0.000 -0.000  0.000  0.000
 4016.1   70  1.3592  0.362E-01  0.80642  1.34841    0.60  0.000961  0.990  1.348  0.000  0.000  1.000  0.000  0.500  0.000  0.000  0.000 -0.000  0.000
 3418.8   70  1.3998  0.552E-01  0.80642  1.34841    0.60  0.001674  0.990  1.348  0.000  0.000  1.000  0.000  0.500  0.000  0.000  0.000 -0.000  0.000
 3444.7   70  1.3973  0.528E-01  0.80642  1.34841    0.60  0.001592  0.990  1.348  0.000  0.000  1.000  0.000  0.500  0.000  0.000  0.000 -0.000 -0.000
 2777.0   70  1.2863  0.179E+00  0.80642  1.34841    0.60  0.007222  0.990  1.348  0.000  0.000  1.000  0.000  0.500  0.000  0.000 -0.000 -0.000  0.000
 2320.2   70  1.2984  0.333E-01  0.80642  1.34841    0.60  0.001593  0.990  1.348  0.000  0.000  1.000  0.000  0.500  0.000  0.000  0.000  0.000 -0.000
 2044.2   70  1.3233  0.314E-02  0.80642  1.34841    0.60  0.000168  0.990  1.348  0.000  0.000  1.000  0.000  0.500  0.000  0.000 -0.000 -0.000 -0.000
 1778.4   70  1.3332  0.945E-03  0.80642  1.34841    0.60  0.000058  0.990  1.348  0.000  0.000  1.000  0.000  0.500  0.000  0.000  0.000 -0.000 -0.000
 1455.2   70  1.3429  0.350E-03  0.80642  1.34841    0.60  0.000026  0.990  1.348  0.000  0.000  1.000  0.000  0.500  0.000  0.000  0.000  0.000 -0.000
 1270.3   70  1.3456  0.549E-04  0.80642  1.34841    0.60  0.000005  0.990  1.348  0.000  0.000  1.000  0.000  0.500  0.000  0.000  0.000 -0.000 -0.000
  944.3   70  1.3527  0.578E-05  0.80642  1.34841    0.60  0.000001  0.990  1.348  0.007  0.000  1.000  0.000  0.500  0.000  0.000  0.000 -0.000  0.000
  693.5   70  1.3560  0.276E-07  0.80642  1.34841    0.60  0.000000  0.990  1.348  0.792  0.000  1.000  0.000  0.500  0.000  0.000  0.000 -0.000 -0.000
  527.1   70  1.3588  0.296E-08  0.80642  1.34841    0.60  0.000000  0.990  1.348  0.988  0.000  1.000  0.000  0.500  0.000  0.000  0.000  0.000  0.000
  399.8   70  1.3650  0.398E-08  0.80642  1.34841    0.60  0.000000  0.990  1.348  0.993  0.000  1.000  0.000  0.500  0.000  0.000  0.000  0.000 -0.000
  329.1   70  1.3740  0.948E-08  0.80642  1.34841    0.60  0.000000  0.990  1.348  0.991  0.000  1.000  0.000  0.500  0.000  0.000  0.000 -0.000  0.000
  229.8   70  1.3960  0.293E-07  0.80642  1.34841    0.60  0.000002  0.990  1.348  0.992  0.000  1.000  0.001  0.500  0.000  0.000  0.000  0.000 -0.000
 7082.2   70  1.2907  0.599E-01  0.80642  1.34841    0.60  0.000944  0.990  1.348  0.000  0.000  1.000  0.000  0.500  0.000  0.000 -0.000 -0.000  0.000
  300.0   80  1.3740  0.148E-07  0.80642  1.44968    0.60  0.000001  0.990  1.450  0.992  0.000  1.000  0.001  0.500  0.000  0.000  0.000  0.000 -0.000
  400.0   80  1.3600  0.352E-08  0.80642  1.44968    0.60  0.000000  0.990  1.450  0.995  0.000  1.000  0.000  0.500  0.000  0.000  0.000  0.000 -0.000
  440.0   80  1.3566  0.283E-08  0.80642  1.44968    0.60  0.000000  0.990  1.450  0.995  0.000  1.000  0.000  0.500  0.000  0.000  0.000  0.000 -0.000
  500.0   80  1.3550  0.284E-08  0.80642  1.44968    0.60  0.000000  0.990  1.450  0.992  0.000  1.000  0.000  0.500  0.000  0.000  0.000  0.000 -0.000
  550.0   80  1.3530  0.360E-08  0.80642  1.44968    0.60  0.000000  0.990  1.450  0.986  0.000  1.000  0.000  0.500  0.000  0.000  0.000 -0.000  0.000
  600.0   80  1.3520  0.117E-07  0.80642  1.44968    0.60  0.000000  0.990  1.450  0.944  0.000  1.000  0.000  0.500  0.000  0.000  0.000  0.000 -0.000
  675.0   80  1.3510  0.220E-07  0.80642  1.44968    0.60  0.000000  0.990  1.450  0.862  0.000  1.000  0.000  0.500  0.000  0.000  0.000  0.000 -0.000
  800.0   80  1.3490  0.117E-06  0.80642  1.44968    0.60  0.000000  0.990  1.450  0.411  0.000  1.000  0.000  0.500  0.000  0.000  0.000 -0.000  0.000
  870.0   80  1.3483  0.121E-05  0.80642  1.44968    0.60  0.000000  0.990  1.450  0.050  0.000  1.000  0.000  0.500  0.000  0.000  0.000 -0.000  0.000
 1000.0   80  1.3460  0.261E-05  0.80642  1.44968    0.60  0.000000  0.990  1.450  0.016  0.000  1.000  0.000  0.500  0.000  0.000 -0.000 -0.000 -0.000
 1020.0   80  1.3455  0.566E-05  0.80642  1.44968    0.60  0.000001  0.990  1.450  0.007  0.000  1.000  0.000  0.500  0.000  0.000  0.000  0.000 -0.000
55555.6   80  1.6070  0.306E+00  0.80642  1.44968    0.60  0.000605  0.990  1.450  0.000 -0.000  1.000 -0.000  0.200  0.000 -0.000  0.000  0.000 -0.000
23529.4   80  1.5988  0.294E+00  0.80642  1.44968    0.60  0.001382  0.990  1.450  0.000  0.000  1.000  0.000  0.200  0.000 -0.000 -0.000  0.000  0.000
17699.1   80  1.5084  0.388E+00  0.80642  1.44968    0.60  0.002596  0.990  1.450  0.000  0.000  1.000  0.000  0.500  0.000 -0.000 -0.000 -0.000  0.000
15037.6   80  1.3358  0.364E+00  0.80642  1.44968    0.60  0.003268  0.990  1.450  0.000  0.000  1.000  0.000  0.500  0.000  0.000  0.000  0.000  0.000
13157.9   80  1.2627  0.292E+00  0.80642  1.44968    0.60  0.003145  0.990  1.450  0.000  0.000  1.000  0.000  0.500  0.000  0.000 -0.000  0.000  0.000
11111.1   80  1.2605  0.184E+00  0.80642  1.44968    0.60  0.002344  0.990  1.450  0.000  0.000  1.000  0.000  0.500  0.000  0.000 -0.000 -0.000  0.000
 9708.7   80  1.3607  0.189E+00  0.80642  1.44968    0.60  0.002579  0.990  1.450  0.000  0.000  1.000  0.000  0.500  0.000  0.000  0.000  0.000 -0.000
 8849.6   80  1.3393  0.177E+00  0.80642  1.44968    0.60  0.002689  0.990  1.450  0.000  0.000  1.000  0.000  0.500  0.000  0.000 -0.000 -0.000  0.000
 7782.1   80  1.2658  0.114E+00  0.80642  1.44968    0.60  0.002064  0.990  1.450  0.000  0.000  1.000  0.000  0.500  0.000  0.000  0.000 -0.000  0.000
 6968.6   80  1.2973  0.470E-01  0.80642  1.44968    0.60  0.000931  0.990  1.450  0.000  0.000  1.000  0.000  0.500  0.000  0.000 -0.000 -0.000  0.000
 6097.6   80  1.3384  0.119E+00  0.80642  1.44968    0.60  0.002624  0.990  1.450  0.000  0.000  1.000  0.000  0.500  0.000  0.000 -0.000  0.000 -0.000
 5154.6   80  1.3291  0.312E-01  0.80642  1.44968    0.60  0.000818  0.990  1.450  0.000  0.000  1.000  0.000  0.500  0.000  0.000 -0.000 -0.000 -0.000
 4618.9   80  1.3403  0.363E-01  0.80642  1.44968    0.60  0.001055  0.990  1.450  0.000  0.000  1.000  0.000  0.500  0.000  0.000  0.000 -0.000 -0.000
 4319.7   80  1.3468  0.330E-01  0.80642  1.44968    0.60  0.001021  0.990  1.450  0.000  0.000  1.000  0.000  0.500  0.000  0.000  0.000 -0.000  0.000
 4016.1   80  1.3572  0.295E-01  0.80642  1.44968    0.60  0.000975  0.990  1.450  0.000  0.000  1.000  0.000  0.500  0.000  0.000  0.000 -0.000 -0.000
 3418.8   80  1.4029  0.476E-01  0.80642  1.44968    0.60  0.001790  0.990  1.450  0.000  0.000  1.000  0.000  0.500  0.000  0.000  0.000 -0.000 -0.000
 3444.7   80  1.3996  0.449E-01  0.80642  1.44968    0.60  0.001680  0.990  1.450  0.000  0.000  1.000  0.000  0.500  0.000  0.000 -0.000 -0.000 -0.000
 2777.0   80  1.2844  0.189E+00  0.80642  1.44968    0.60  0.009489  0.990  1.450  0.000  0.000  1.000  0.000  0.500  0.000  0.000  0.000 -0.000  0.000
 2320.2   80  1.2933  0.355E-01  0.80642  1.44968    0.60  0.002118  0.990  1.450  0.000  0.000  1.000  0.000  0.500  0.000  0.000  0.000 -0.000 -0.000
 2044.2   80  1.3192  0.342E-02  0.80642  1.44968    0.60  0.000228  0.990  1.450  0.000  0.000  1.000  0.000  0.500  0.000  0.000  0.000 -0.000  0.000
 1778.4   80  1.3292  0.970E-03  0.80642  1.44968    0.60  0.000074  0.990  1.450  0.000  0.000  1.000  0.000  0.500  0.000  0.000  0.000 -0.000  0.000
 1455.2   80  1.3389  0.368E-03  0.80642  1.44968    0.60  0.000034  0.990  1.450  0.000  0.000  1.000  0.000  0.500  0.000  0.000  0.000 -0.000  0.000
 1270.3   80  1.3408  0.577E-04  0.80642  1.44968    0.60  0.000006  0.990  1.450  0.000  0.000  1.000  0.000  0.500  0.000  0.000  0.000 -0.000 -0.000
  944.3   80  1.3473  0.608E-05  0.80642  1.44968    0.60  0.000001  0.990  1.450  0.008  0.000  1.000  0.000  0.500  0.000  0.000  0.000 -0.000  0.000
  693.5   80  1.3510  0.282E-07  0.80642  1.44968    0.60  0.000000  0.990  1.450  0.818  0.000  1.000  0.000  0.500  0.000  0.000  0.000 -0.000  0.000
  527.1   80  1.3540  0.248E-08  0.80642  1.44968    0.60  0.000000  0.990  1.450  0.992  0.000  1.000  0.000  0.500  0.000  0.000  0.000  0.000 -0.000
  399.8   80  1.3600  0.353E-08  0.80642  1.44968    0.60  0.000000  0.990  1.450  0.995  0.000  1.000  0.000  0.500  0.000  0.000  0.000  0.000 -0.000
  329.1   80  1.3680  0.947E-08  0.80642  1.44968    0.60  0.000001  0.990  1.450  0.993  0.000  1.000  0.000  0.500  0.000  0.000  0.000  0.000 -0.000
  229.8   80  1.3888  0.307E-07  0.80642  1.44968    0.60  0.000002  0.990  1.450  0.993  0.000  1.000  0.001  0.500  0.000  0.000  0.000  0.000  0.000
 7082.2   80  1.2942  0.533E-01  0.80642  1.44968    0.60  0.001041  0.990  1.450  0.000  0.000  1.000  0.000  0.500  0.000  0.000 -0.000 -0.000 -0.000
  300.0   90  1.3650  0.152E-07  0.80642  1.65913    0.60  0.000002  0.990  1.659  0.994  0.000  1.000  0.001  0.500  0.000  0.000  0.000 -0.000 -0.000
  400.0   90  1.3530  0.297E-08  0.80642  1.65913    0.60  0.000001  0.990  1.659  0.997  0.000  1.000  0.000  0.500  0.000  0.000  0.000 -0.000 -0.000
  440.0   90  1.3505  0.222E-08  0.80642  1.65913    0.60  0.000000  0.990  1.659  0.997  0.000  1.000  0.000  0.500  0.000  0.000  0.000  0.000  0.000
  500.0   90  1.3480  0.223E-08  0.80642  1.65913    0.60  0.000000  0.990  1.659  0.996  0.000  1.000  0.000  0.500  0.000  0.000  0.000  0.000 -0.000
  550.0   90  1.3460  0.306E-08  0.80642  1.65913    0.60  0.000000  0.990  1.659  0.992  0.000  1.000  0.000  0.500  0.000  0.000  0.000 -0.000 -0.000
  600.0   90  1.3450  0.114E-07  0.80642  1.65913    0.60  0.000000  0.990  1.659  0.961  0.000  1.000  0.000  0.500  0.000  0.000  0.000  0.000  0.000
  675.0   90  1.3440  0.224E-07  0.80642  1.65913    0.60  0.000000  0.990  1.659  0.898  0.000  1.000  0.000  0.500  0.000  0.000  0.000 -0.000 -0.000
  800.0   90  1.3420  0.120E-06  0.80642  1.65913    0.60  0.000000  0.990  1.659  0.495  0.000  1.000  0.000  0.500  0.000  0.000  0.000  0.000 -0.000
  870.0   90  1.3412  0.130E-05  0.80642  1.65913    0.60  0.000000  0.990  1.659  0.065  0.000  1.000  0.000  0.500  0.000  0.000  0.000 -0.000 -0.000
 1000.0   90  1.3400  0.270E-05  0.80642  1.65913    0.60  0.000001  0.990  1.659  0.022  0.000  1.000  0.000  0.500  0.000  0.000  0.000  0.000  0.000
 1020.0   90  1.3397  0.614E-05  0.80642  1.65913    0.60  0.000001  0.990  1.659  0.009  0.000  1.000  0.000  0.500  0.000  0.000  0.000 -0.000  0.000
55555.6   90  1.5820  0.316E+00  0.80642  1.65913    0.60  0.000955  0.990  1.659  0.000  0.000  1.000  0.000  0.200  0.000 -0.000  0.000 -0.000 -0.000
23529.4   90  1.5721  0.317E+00  0.80642  1.65913    0.60  0.002280  0.990  1.659  0.000  0.000  1.000  0.000  0.500  0.000 -0.000 -0.000  0.000  0.000
17699.1   90  1.4755  0.401E+00  0.80642  1.65913    0.60  0.004126  0.990  1.659  0.000  0.000  1.000  0.000  0.500  0.000 -0.000 -0.000 -0.000 -0.000
15037.6   90  1.3154  0.377E+00  0.80642  1.65913    0.60  0.005149  0.990  1.659  0.000  0.000  1.000  0.000  0.500  0.000  0.000  0.000 -0.000  0.000
13157.9   90  1.2270  0.301E+00  0.80642  1.65913    0.60  0.004975  0.990  1.659  0.000  0.000  1.000  0.000  0.500  0.000  0.000  0.000 -0.000  0.000
11111.1   90  1.2227  0.158E+00  0.80642  1.65913    0.60  0.003086  0.990  1.659  0.000  0.000  1.000  0.000  0.500  0.000  0.000 -0.000 -0.000 -0.000
 9708.7   90  1.3185  0.142E+00  0.80642  1.65913    0.60  0.002988  0.990  1.659  0.000  0.000  1.000  0.000  0.500  0.000  0.000  0.000 -0.000 -0.000
 8849.6   90  1.3151  0.131E+00  0.80642  1.65913    0.60  0.003030  0.990  1.659  0.000  0.000  1.000  0.000  0.500  0.000  0.000  0.000  0.000  0.000
 7782.1   90  1.2763  0.876E-01  0.80642  1.65913    0.60  0.002361  0.990  1.659  0.000  0.000  1.000  0.000  0.500  0.000  0.000  0.000 -0.000  0.000
 6968.6   90  1.3006  0.398E-01  0.80642  1.65913    0.60  0.001179  0.990  1.659  0.000  0.000  1.000  0.000  0.500  0.000  0.000 -0.000  0.000  0.000
 6097.6   90  1.3306  0.113E+00  0.80642  1.65913    0.60  0.003754  0.990  1.659  0.000  0.000  1.000  0.000  0.500  0.000  0.000 -0.000  0.000 -0.000
 5154.6   90  1.3281  0.222E-01  0.80642  1.65913    0.60  0.000874  0.990  1.659  0.000  0.000  1.000  0.000  0.500  0.000  0.000 -0.000 -0.000 -0.000
 4618.9   90  1.3363  0.294E-01  0.80642  1.65913    0.60  0.001284  0.990  1.659  0.000  0.000  1.000  0.000  0.500  0.000  0.000 -0.000 -0.000 -0.000
 4319.7   90  1.3436  0.252E-01  0.80642  1.65913    0.60  0.001171  0.990  1.659  0.000  0.000  1.000  0.000  0.500  0.000  0.000 -0.000  0.000  0.000
 4016.1   90  1.3552  0.213E-01  0.80642  1.65913    0.60  0.001057  0.990  1.659  0.000  0.000  1.000  0.000  0.500  0.000  0.000  0.000  0.000  0.000
 3418.8   90  1.4069  0.381E-01  0.80642  1.65913    0.60  0.002142  0.990  1.659  0.000  0.000  1.000  0.000  0.500  0.000  0.000 -0.000 -0.000 -0.000
 3444.7   90  1.4029  0.351E-01  0.80642  1.65913    0.60  0.001964  0.990  1.659  0.000  0.000  1.000  0.000  0.500  0.000  0.000 -0.000 -0.000  0.000
 2777.0   90  1.2822  0.201E+00  0.80642  1.65913    0.60  0.015153  0.990  1.659  0.000  0.000  1.000  0.000  0.500  0.000  0.000 -0.000  0.000 -0.000
 2320.2   90  1.2874  0.382E-01  0.80642  1.65913    0.60  0.003429  0.990  1.659  0.000  0.000  1.000  0.000  0.500  0.000  0.000 -0.000 -0.000  0.000
 2044.2   90  1.3142  0.376E-02  0.80642  1.65913    0.60  0.000377  0.990  1.659  0.000  0.000  1.000  0.000  0.500  0.000  0.000  0.000  0.000  0.000
 1778.4   90  1.3233  0.999E-03  0.80642  1.65913    0.60  0.000114  0.990  1.659  0.000  0.000  1.000  0.000  0.500  0.000  0.000  0.000 -0.000  0.000
 1455.2   90  1.3329  0.388E-03  0.80642  1.65913    0.60  0.000054  0.990  1.659  0.000  0.000  1.000  0.000  0.500  0.000  0.000  0.000 -0.000 -0.000
 1270.3   90  1.3347  0.610E-04  0.80642  1.65913    0.60  0.000010  0.990  1.659  0.000  0.000  1.000  0.000  0.500  0.000  0.000  0.000  0.000  0.000
  944.3   90  1.3406  0.645E-05  0.80642  1.65913    0.60  0.000001  0.990  1.659  0.011  0.000  1.000  0.000  0.500  0.000  0.000  0.000 -0.000  0.000
  693.5   90  1.3440  0.290E-07  0.80642  1.65913    0.60  0.000000  0.990  1.659  0.863  0.000  1.000  0.000  0.500  0.000  0.000  0.000  0.000  0.000
  527.1   90  1.3468  0.188E-08  0.80642  1.65913    0.60  0.000000  0.990  1.659  0.996  0.000  1.000  0.000  0.500  0.000  0.000  0.000  0.000  0.000
  399.8   90  1.3530  0.299E-08  0.80642  1.65913    0.60  0.000001  0.990  1.659  0.997  0.000  1.000  0.000  0.500  0.000  0.000  0.000  0.000  0.000
  329.1   90  1.3601  0.942E-08  0.80642  1.65913    0.60  0.000001  0.990  1.659  0.995  0.000  1.000  0.001  0.500  0.000  0.000  0.000 -0.000  0.000
  229.8   90  1.3810  0.324E-07  0.80642  1.65913    0.60  0.000005  0.990  1.659  0.995  0.000  1.000  0.001  0.500  0.000  0.000  0.000  0.000 -0.000
 7082.2   90  1.2994  0.451E-01  0.80642  1.65913    0.60  0.001316  0.990  1.659  0.000  0.000  1.000  0.000  0.500  0.000  0.000  0.000 -0.000  0.000
  300.0   95  1.3590  0.155E-07  0.80642  1.77485    0.60  0.000002  0.990  1.775  0.995  0.000  1.000  0.001  0.500  0.000  0.000  0.000 -0.000  0.000
  400.0   95  1.3480  0.255E-08  0.80642  1.77485    0.60  0.000001  0.990  1.775  0.998  0.000  1.000  0.000  0.500  0.000  0.000  0.000 -0.000 -0.000
  440.0   95  1.3455  0.175E-08  0.80642  1.77485    0.60  0.000000  0.990  1.775  0.998  0.000  1.000  0.000  0.500  0.000  0.000  0.000  0.000  0.000
  500.0   95  1.3430  0.177E-08  0.80642  1.77485    0.60  0.000000  0.990  1.775  0.997  0.000  1.000  0.000  0.500  0.000  0.000  0.000  0.000 -0.000
  550.0   95  1.3410  0.264E-08  0.80642  1.77485    0.60  0.000000  0.990  1.775  0.994  0.000  1.000  0.000  0.500  0.000  0.000  0.000  0.000 -0.000
  600.0   95  1.3400  0.112E-07  0.80642  1.77485    0.60  0.000000  0.990  1.775  0.968  0.000  1.000  0.000  0.500  0.000  0.000  0.000  0.000  0.000
  675.0   95  1.3390  0.229E-07  0.80642  1.77485    0.60  0.000000  0.990  1.775  0.911  0.000  1.000  0.000  0.500  0.000  0.000  0.000 -0.000  0.000
  800.0   95  1.3370  0.122E-06  0.80642  1.77485    0.60  0.000000  0.990  1.775  0.534  0.000  1.000  0.000  0.500  0.000  0.000  0.000 -0.000 -0.000
  870.0   95  1.3362  0.136E-05  0.80642  1.77485    0.60  0.000000  0.990  1.775  0.074  0.000  1.000  0.000  0.500  0.000  0.000  0.000  0.000  0.000
 1000.0   95  1.3350  0.277E-05  0.80642  1.77485    0.60  0.000001  0.990  1.775  0.025  0.000  1.000  0.000  0.500  0.000  0.000  0.000 -0.000  0.000
 1020.0   95  1.3347  0.649E-05  0.80642  1.77485    0.60  0.000002  0.990  1.775  0.010  0.000  1.000  0.000  0.500  0.000  0.000  0.000 -0.000  0.000
55555.6   95  1.5630  0.324E+00  0.80642  1.77485    0.60  0.001217  0.990  1.775  0.000  0.000  1.000  0.000  0.200  0.000 -0.000  0.000 -0.000  0.000
23529.4   95  1.5513  0.334E+00  0.80642  1.77485    0.60  0.002988  0.990  1.775  0.000  0.000  1.000  0.000  0.500  0.000 -0.000  0.000 -0.000  0.000
17699.1   95  1.4509  0.411E+00  0.80642  1.77485    0.60  0.005275  0.990  1.775  0.000  0.000  1.000  0.000  0.500  0.000  0.000  0.000 -0.000  0.000
15037.6   95  1.2986  0.387E+00  0.80642  1.77485    0.60  0.006548  0.990  1.775  0.000  0.000  1.000  0.000  0.500  0.000  0.000 -0.000 -0.000 -0.000
13157.9   95  1.1998  0.308E+00  0.80642  1.77485    0.60  0.006340  0.990  1.775  0.000  0.000  1.000  0.000  0.500  0.000  0.000 -0.000 -0.000 -0.000
11111.1   95  1.1936  0.139E+00  0.80642  1.77485    0.60  0.003378  0.990  1.775  0.000  0.000  1.000  0.000  0.500  0.000  0.000  0.000 -0.000  0.000
 9708.7   95  1.2865  0.106E+00  0.80642  1.77485    0.60  0.002786  0.990  1.775  0.000  0.000  1.000  0.000  0.500  0.000  0.000 -0.000 -0.000  0.000
 8849.6   95  1.2972  0.962E-01  0.80642  1.77485    0.60  0.002755  0.990  1.775  0.000  0.000  1.000  0.000  0.500  0.000  0.000  0.000  0.000 -0.000
 7782.1   95  1.2844  0.675E-01  0.80642  1.77485    0.60  0.002216  0.990  1.775  0.000  0.000  1.000  0.000  0.500  0.000  0.000 -0.000 -0.000  0.000
 6968.6   95  1.3032  0.345E-01  0.80642  1.77485    0.60  0.001249  0.990  1.775  0.000  0.000  1.000  0.000  0.500  0.000  0.000  0.000 -0.000  0.000
 6097.6   95  1.3249  0.109E+00  0.80642  1.77485    0.60  0.004450  0.990  1.775  0.000  0.000  1.000  0.000  0.500  0.000  0.000  0.000 -0.000 -0.000
 5154.6   95  1.3268  0.153E-01  0.80642  1.77485    0.60  0.000738  0.990  1.775  0.000  0.000  1.000  0.000  0.500  0.000  0.000  0.000  0.000 -0.000
 4618.9   95  1.3342  0.243E-01  0.80642  1.77485    0.60  0.001301  0.990  1.775  0.000  0.000  1.000  0.000  0.500  0.000  0.000  0.000 -0.000  0.000
 4319.7   95  1.3417  0.194E-01  0.80642  1.77485    0.60  0.001105  0.990  1.775  0.000  0.000  1.000  0.000  0.500  0.000  0.000  0.000 -0.000  0.000
 4016.1   95  1.3532  0.150E-01  0.80642  1.77485    0.60  0.000912  0.990  1.775  0.000  0.000  1.000  0.000  0.500  0.000  0.000 -0.000 -0.000  0.000
 3418.8   95  1.4100  0.309E-01  0.80642  1.77485    0.60  0.002122  0.990  1.775  0.000  0.000  1.000  0.000  0.500  0.000  0.000  0.000  0.000  0.000
 3444.7   95  1.4053  0.278E-01  0.80642  1.77485    0.60  0.001901  0.990  1.775  0.000  0.000  1.000  0.000  0.500  0.000  0.000  0.000 -0.000  0.000
 2777.0   95  1.2807  0.211E+00  0.80642  1.77485    0.60  0.019495  0.990  1.775  0.000  0.000  1.000  0.000  0.500  0.000  0.000  0.000  0.000  0.000
 2320.2   95  1.2830  0.402E-01  0.80642  1.77485    0.60  0.004429  0.990  1.775  0.000  0.000  1.000  0.000  0.500  0.000  0.000 -0.000 -0.000  0.000
 2044.2   95  1.3102  0.402E-02  0.80642  1.77485    0.60  0.000494  0.990  1.775  0.000  0.000  1.000  0.000  0.500  0.000  0.000  0.000 -0.000 -0.000
 1778.4   95  1.3193  0.102E-02  0.80642  1.77485    0.60  0.000143  0.990  1.775  0.000  0.000  1.000  0.000  0.500  0.000  0.000  0.000 -0.000  0.000
 1455.2   95  1.3289  0.403E-03  0.80642  1.77485    0.60  0.000069  0.990  1.775  0.000  0.000  1.000  0.000  0.500  0.000  0.000  0.000 -0.000  0.000
 1270.3   95  1.3308  0.635E-04  0.80642  1.77485    0.60  0.000012  0.990  1.775  0.001  0.000  1.000  0.000  0.500  0.000  0.000  0.000 -0.000 -0.000
  944.3   95  1.3356  0.672E-05  0.80642  1.77485    0.60  0.000002  0.990  1.775  0.012  0.000  1.000  0.000  0.500  0.000  0.000  0.000 -0.000  0.000
  693.5   95  1.3390  0.297E-07  0.80642  1.77485    0.60  0.000000  0.990  1.775  0.880  0.000  1.000  0.000  0.500  0.000  0.000  0.000  0.000  0.000
  527.1   95  1.3418  0.142E-08  0.80642  1.77485    0.60  0.000000  0.990  1.775  0.997  0.000  1.000  0.000  0.500  0.000  0.000  0.000  0.000 -0.000
  399.8   95  1.3480  0.257E-08  0.80642  1.77485    0.60  0.000001  0.990  1.775  0.998  0.000  1.000  0.000  0.500  0.000  0.000  0.000  0.000  0.000
  329.1   95  1.3541  0.938E-08  0.80642  1.77485    0.60  0.000002  0.990  1.775  0.996  0.000  1.000  0.001  0.500  0.000  0.000  0.000  0.000  0.000
  229.8   95  1.3738  0.338E-07  0.80642  1.77485    0.60  0.000008  0.990  1.775  0.995  0.000  1.000  0.001  0.500  0.000  0.000  0.000  0.000 -0.000
 7082.2   95  1.3032  0.391E-01  0.80642  1.77485    0.60  0.001393  0.990  1.775  0.000  0.000  1.000  0.000  0.500  0.000  0.000  0.000 -0.000  0.000
  300.0   99  1.3520  0.158E-07  0.80642  1.77485    0.60  0.000002  0.990  1.775  0.995  0.000  1.000  0.001  0.500  0.000  0.000  0.000  0.000 -0.000
  400.0   99  1.3420  0.208E-08  0.80642  1.77485    0.60  0.000001  0.990  1.775  0.998  0.000  1.000  0.000  0.500  0.000  0.000  0.000  0.000 -0.000
  440.0   99  1.3403  0.124E-08  0.80642  1.77485    0.60  0.000000  0.990  1.775  0.999  0.000  1.000  0.000  0.500  0.000  0.000  0.000  0.000  0.000
  500.0   99  1.3380  0.124E-08  0.80642  1.77485    0.60  0.000000  0.990  1.775  0.998  0.000  1.000  0.000  0.500  0.000  0.000  0.000  0.000 -0.000
  550.0   99  1.3360  0.218E-08  0.80642  1.77485    0.60  0.000000  0.990  1.775  0.995  0.000  1.000  0.000  0.500  0.000  0.000  0.000  0.000  0.000
  600.0   99  1.3350  0.110E-07  0.80642  1.77485    0.60  0.000000  0.990  1.775  0.967  0.000  1.000  0.000  0.500  0.000  0.000  0.000 -0.000  0.000
  675.0   99  1.3340  0.233E-07  0.80642  1.77485    0.60  0.000000  0.990  1.775  0.907  0.000  1.000  0.000  0.500  0.000  0.000  0.000  0.000 -0.000
  800.0   99  1.3320  0.124E-06  0.80642  1.77485    0.60  0.000000  0.990  1.775  0.522  0.000  1.000  0.000  0.500  0.000  0.000  0.000 -0.000 -0.000
  870.0   99  1.3312  0.144E-05  0.80642  1.77485    0.60  0.000000  0.990  1.775  0.068  0.000  1.000  0.000  0.500  0.000  0.000  0.000 -0.000  0.000
 1000.0   99  1.3300  0.285E-05  0.80642  1.77485    0.60  0.000001  0.990  1.775  0.023  0.000  1.000  0.000  0.500  0.000  0.000  0.000 -0.000  0.000
 1020.0   99  1.3297  0.690E-05  0.80642  1.77485    0.60  0.000002  0.990  1.775  0.009  0.000  1.000  0.000  0.500  0.000  0.000  0.000 -0.000  0.000
55555.6   99  1.5420  0.332E+00  0.80642  1.77485    0.60  0.001267  0.990  1.775  0.000  0.000  1.000  0.000  0.200  0.000 -0.000  0.000 -0.000 -0.000
23529.4   99  1.5285  0.355E+00  0.80642  1.77485    0.60  0.003231  0.990  1.775  0.000  0.000  1.000  0.000  0.500  0.000 -0.000  0.000  0.000 -0.000
17699.1   99  1.4224  0.422E+00  0.80642  1.77485    0.60  0.005536  0.990  1.775  0.000  0.000  1.000  0.000  0.500  0.000  0.000 -0.000 -0.000 -0.000
15037.6   99  1.2810  0.398E+00  0.80642  1.77485    0.60  0.006820  0.990  1.775  0.000  0.000  1.000  0.000  0.500  0.000  0.000  0.000  0.000 -0.000
13157.9   99  1.1699  0.314E+00  0.80642  1.77485    0.60  0.006583  0.990  1.775  0.000  0.000  1.000  0.000  0.500  0.000  0.000  0.000 -0.000  0.000
11111.1   99  1.1612  0.116E+00  0.80642  1.77485    0.60  0.002868  0.990  1.775  0.000  0.000  1.000  0.000  0.500  0.000  0.000 -0.000 -0.000 -0.000
 9708.7   99  1.2511  0.657E-01  0.80642  1.77485    0.60  0.001765  0.990  1.775  0.000  0.000  1.000  0.000  0.500  0.000  0.000 -0.000  0.000  0.000
 8849.6   99  1.2770  0.573E-01  0.80642  1.77485    0.60  0.001662  0.990  1.775  0.000  0.000  1.000  0.000  0.500  0.000  0.000 -0.000 -0.000  0.000
 7782.1   99  1.2939  0.448E-01  0.80642  1.77485    0.60  0.001462  0.990  1.775  0.000  0.000  1.000  0.000  0.500  0.000  0.000  0.000  0.000 -0.000
 6968.6   99  1.3056  0.282E-01  0.80642  1.77485    0.60  0.001020  0.990  1.775  0.000  0.000  1.000  0.000  0.500  0.000  0.000  0.000 -0.000  0.000
 6097.6   99  1.3183  0.104E+00  0.80642  1.77485    0.60  0.004264  0.990  1.775  0.000  0.000  1.000  0.000  0.500  0.000  0.000  0.000  0.000 -0.000
 5154.6   99  1.3260  0.782E-02  0.80642  1.77485    0.60  0.000377  0.990  1.775  0.000  0.000  1.000  0.000  0.500  0.000  0.000  0.000 -0.000  0.000
 4618.9   99  1.3302  0.184E-01  0.80642  1.77485    0.60  0.000988  0.990  1.775  0.000  0.000  1.000  0.000  0.500  0.000  0.000 -0.000 -0.000  0.000
 4319.7   99  1.3382  0.127E-01  0.80642  1.77485    0.60  0.000725  0.990  1.775  0.000  0.000  1.000  0.000  0.500  0.000  0.000 -0.000  0.000 -0.000
 4016.1   99  1.3511  0.804E-02  0.80642  1.77485    0.60  0.000490  0.990  1.775  0.000  0.000  1.000  0.000  0.500  0.000  0.000 -0.000 -0.000  0.000
 3418.8   99  1.4131  0.228E-01  0.80642  1.77485    0.60  0.001563  0.990  1.775  0.000  0.000  1.000  0.000  0.500  0.000  0.000  0.000  0.000 -0.000
 3444.7   99  1.4076  0.194E-01  0.80642  1.77485    0.60  0.001325  0.990  1.775  0.000  0.000  1.000  0.000  0.500  0.000  0.000 -0.000 -0.000  0.000
 2777.0   99  1.2799  0.221E+00  0.80642  1.77485    0.60  0.020434  0.990  1.775  0.000  0.000  1.000  0.000  0.500  0.000  0.000  0.000 -0.000  0.000
 2320.2   99  1.2774  0.425E-01  0.80642  1.77485    0.60  0.004699  0.990  1.775  0.000  0.000  1.000  0.000  0.500  0.000  0.000  0.000 -0.000  0.000
 2044.2   99  1.3051  0.430E-02  0.80642  1.77485    0.60  0.000530  0.990  1.775  0.000  0.000  1.000  0.000  0.500  0.000  0.000  0.000 -0.000  0.000
 1778.4   99  1.3143  0.105E-02  0.80642  1.77485    0.60  0.000148  0.990  1.775  0.000  0.000  1.000  0.000  0.500  0.000  0.000 -0.000 -0.000  0.000
 1455.2   99  1.3237  0.420E-03  0.80642  1.77485    0.60  0.000072  0.990  1.775  0.000  0.000  1.000  0.000  0.500  0.000  0.000  0.000 -0.000  0.000
 1270.3   99  1.3248  0.664E-04  0.80642  1.77485    0.60  0.000013  0.990  1.775  0.000  0.000  1.000  0.000  0.500  0.000  0.000  0.000 -0.000 -0.000
  944.3   99  1.3306  0.704E-05  0.80642  1.77485    0.60  0.000002  0.990  1.775  0.011  0.000  1.000  0.000  0.500  0.000  0.000  0.000 -0.000  0.000
  693.5   99  1.3340  0.305E-07  0.80642  1.77485    0.60  0.000000  0.990  1.775  0.873  0.000  1.000  0.000  0.500  0.000  0.000  0.000 -0.000  0.000
  527.1   99  1.3368  0.893E-09  0.80642  1.77485    0.60  0.000000  0.990  1.775  0.998  0.000  1.000  0.000  0.500  0.000  0.000  0.000 -0.000  0.000
  399.8   99  1.3420  0.210E-08  0.80642  1.77485    0.60  0.000001  0.990  1.775  0.998  0.000  1.000  0.000  0.500  0.000  0.000  0.000  0.000 -0.000
  329.1   99  1.3477  0.931E-08  0.80642  1.77485    0.60  0.000002  0.990  1.775  0.996  0.000  1.000  0.001  0.500  0.000  0.000  0.000 -0.000  0.000
  229.8   99  1.3669  0.353E-07  0.80642  1.77485    0.60  0.000007  0.990  1.775  0.995  0.000  1.000  0.001  0.500  0.000  0.000  0.000  0.000  0.000
 7082.2   99  1.3074  0.320E-01  0.80642  1.77485    0.60  0.001137  0.990  1.775  0.000  0.000  1.000  0.000  0.500  0.000  0.000  0.000 -0.000 -0.000
